time,ax,ay,az
2019-04-04 17:4:17.9520,0.01,0.02,0.11
2019-04-04 17:4:17.9880,-0.0,0.02,0.01
2019-04-04 17:4:18.0790,0.01,0.01,-0.08
2019-04-04 17:4:18.1700,0.02,-0.01,0.03
2019-04-04 17:4:18.2660,-0.01,0.01,0.03
2019-04-04 17:4:18.3560,0.02,0.01,0.0
2019-04-04 17:4:18.4540,0.01,0.01,-0.0
2019-04-04 17:4:18.5320,0.0,-0.01,0.02
2019-04-04 17:4:18.6230,-0.01,-0.01,0.01
2019-04-04 17:4:18.7130,-0.0,-0.01,0.03
2019-04-04 17:4:18.8030,0.02,0.01,0.01
2019-04-04 17:4:18.8940,0.0,0.01,-0.04
2019-04-04 17:4:18.9850,-0.01,0.01,0.01
2019-04-04 17:4:19.0760,-0.02,-0.0,-0.0
2019-04-04 17:4:19.1680,-0.0,-0.0,-0.0
2019-04-04 17:4:19.2620,0.01,-0.0,0.03
2019-04-04 17:4:19.3630,0.03,0.02,-0.0
2019-04-04 17:4:19.4380,0.01,0.01,-0.01
2019-04-04 17:4:19.5280,-0.0,0.01,-0.02
2019-04-04 17:4:19.6180,-0.01,-0.0,0.01
2019-04-04 17:4:19.7090,-0.02,-0.02,0.03
2019-04-04 17:4:19.8000,0.0,0.01,0.01
2019-04-04 17:4:19.8900,0.01,0.02,-0.03
2019-04-04 17:4:19.9810,0.0,0.0,0.0
2019-04-04 17:4:20.0740,-0.0,-0.0,0.02
2019-04-04 17:4:20.1630,0.01,0.0,0.01
2019-04-04 17:4:20.2660,0.0,0.01,-0.05
2019-04-04 17:4:20.3430,0.0,0.0,0.03
2019-04-04 17:4:20.4340,0.01,0.0,0.01
2019-04-04 17:4:20.5240,-0.0,0.01,-0.02
2019-04-04 17:4:20.6150,-0.02,-0.0,-0.01
2019-04-04 17:4:20.7050,-0.01,-0.01,-0.0
2019-04-04 17:4:20.7960,-0.0,-0.01,0.0
2019-04-04 17:4:20.8860,-0.0,0.0,0.01
2019-04-04 17:4:20.9830,0.01,0.01,0.02
2019-04-04 17:4:21.0730,0.0,0.01,0.02
2019-04-04 17:4:21.1720,-0.0,0.01,-0.01
2019-04-04 17:4:21.2490,-0.0,0.0,-0.03
2019-04-04 17:4:21.3390,0.01,0.01,0.02
2019-04-04 17:4:21.4300,0.01,0.01,0.02
2019-04-04 17:4:21.5200,-0.0,0.01,-0.0
2019-04-04 17:4:21.6110,-0.0,0.0,0.0
2019-04-04 17:4:21.7010,-0.01,-0.0,-0.01
2019-04-04 17:4:21.7920,-0.0,-0.01,-0.01
2019-04-04 17:4:21.8890,0.01,0.0,-0.01
2019-04-04 17:4:21.9790,0.01,-0.0,0.05
2019-04-04 17:4:22.0780,-0.01,-0.01,0.02
2019-04-04 17:4:22.1540,-0.02,-0.0,0.02
2019-04-04 17:4:22.2450,-0.01,-0.02,0.02
2019-04-04 17:4:22.3350,0.0,0.0,-0.04
2019-04-04 17:4:22.4260,0.01,-0.01,0.01
2019-04-04 17:4:22.5160,-0.0,0.0,0.04
2019-04-04 17:4:22.6070,-0.03,-0.03,0.07
2019-04-04 17:4:22.6970,-0.03,-0.05,0.05
2019-04-04 17:4:22.7940,0.03,-0.09,0.08
2019-04-04 17:4:22.8840,0.11,-0.18,0.21
2019-04-04 17:4:22.9830,0.11,-0.18,0.08
2019-04-04 17:4:23.0600,-0.02,-0.1,0.03
2019-04-04 17:4:23.1500,-0.06,-0.11,0.13
2019-04-04 17:4:23.2410,0.05,-0.21,0.08
2019-04-04 17:4:23.3310,0.01,-0.16,-0.28
2019-04-04 17:4:23.4220,-0.06,-0.08,-0.1
2019-04-04 17:4:23.5120,-0.02,0.17,0.1
2019-04-04 17:4:23.6030,-0.02,0.01,0.1
2019-04-04 17:4:23.6980,-0.09,0.05,0.22
2019-04-04 17:4:23.7910,-0.08,-0.02,0.17
2019-04-04 17:4:23.8900,-0.02,-0.25,-0.23
2019-04-04 17:4:23.9650,0.07,-0.21,-0.39
2019-04-04 17:4:24.0560,0.07,0.09,0.13
2019-04-04 17:4:24.1460,-0.01,0.09,0.1
2019-04-04 17:4:24.2370,-0.05,0.1,0.23
2019-04-04 17:4:24.3270,0.02,0.04,0.23
2019-04-04 17:4:24.4180,0.06,-0.14,-0.03
2019-04-04 17:4:24.5080,0.17,-0.12,-0.33
2019-04-04 17:4:24.6030,0.03,0.21,-0.38
2019-04-04 17:4:24.7000,-0.08,-0.02,0.15
2019-04-04 17:4:24.7910,-0.05,0.15,0.25
2019-04-04 17:4:24.8710,0.0,0.03,0.21
2019-04-04 17:4:24.9610,0.02,-0.15,-0.09
2019-04-04 17:4:25.0520,0.19,-0.25,-0.25
2019-04-04 17:4:25.1420,0.16,0.13,-0.27
2019-04-04 17:4:25.2330,-0.03,0.02,0.19
2019-04-04 17:4:25.3240,-0.11,0.17,0.2
2019-04-04 17:4:25.4140,-0.04,0.07,0.27
2019-04-04 17:4:25.5090,0.1,-0.09,-0.01
2019-04-04 17:4:25.6010,0.14,-0.15,-0.33
2019-04-04 17:4:25.7010,0.0,0.21,-0.44
2019-04-04 17:4:25.7760,-0.1,0.03,0.04
2019-04-04 17:4:25.8670,-0.09,0.21,0.3
2019-04-04 17:4:25.9570,0.01,0.02,0.34
2019-04-04 17:4:26.0480,-0.01,-0.22,0.0
2019-04-04 17:4:26.1390,0.13,-0.27,-0.46
2019-04-04 17:4:26.2290,0.13,0.16,-0.37
2019-04-04 17:4:26.3200,0.05,0.02,0.16
2019-04-04 17:4:26.4150,-0.09,0.22,0.18
2019-04-04 17:4:26.5040,-0.05,0.1,0.22
2019-04-04 17:4:26.6070,0.1,-0.06,0.17
2019-04-04 17:4:26.6820,0.03,-0.16,-0.44
2019-04-04 17:4:26.7720,0.03,0.09,-0.41
2019-04-04 17:4:26.8630,-0.04,-0.03,0.0
2019-04-04 17:4:26.9540,-0.12,0.21,0.25
2019-04-04 17:4:27.0440,-0.03,0.08,0.26
2019-04-04 17:4:27.1350,0.02,-0.17,-0.01
2019-04-04 17:4:27.2250,0.08,-0.17,-0.35
2019-04-04 17:4:27.3230,0.04,0.12,-0.36
2019-04-04 17:4:27.4140,0.05,-0.02,0.04
2019-04-04 17:4:27.5120,-0.09,0.2,0.15
2019-04-04 17:4:27.5870,-0.05,0.21,0.33
2019-04-04 17:4:27.6780,0.13,-0.02,0.26
2019-04-04 17:4:27.7690,0.08,-0.37,-0.36
2019-04-04 17:4:27.8590,-0.0,0.2,-0.61
2019-04-04 17:4:27.9500,-0.03,0.01,0.08
2019-04-04 17:4:28.0400,-0.15,0.2,0.29
2019-04-04 17:4:28.1310,-0.04,0.16,0.41
2019-04-04 17:4:28.2240,0.04,-0.1,0.14
2019-04-04 17:4:28.3200,0.04,-0.28,-0.41
2019-04-04 17:4:28.4190,0.05,0.05,-0.49
2019-04-04 17:4:28.4930,0.02,0.02,0.13
2019-04-04 17:4:28.5840,-0.11,0.22,0.19
2019-04-04 17:4:28.6740,-0.01,0.12,0.35
2019-04-04 17:4:28.7650,0.15,-0.06,0.09
2019-04-04 17:4:28.8550,0.02,-0.15,-0.3
2019-04-04 17:4:28.9460,-0.07,0.09,-0.62
2019-04-04 17:4:29.0360,-0.17,0.0,0.08
2019-04-04 17:4:29.1330,-0.16,0.23,0.32
2019-04-04 17:4:29.2250,0.02,0.05,0.35
2019-04-04 17:4:29.3230,0.05,-0.13,-0.04
2019-04-04 17:4:29.3990,0.19,-0.25,-0.36
2019-04-04 17:4:29.4890,0.14,0.07,-0.34
2019-04-04 17:4:29.5800,-0.01,0.06,0.15
2019-04-04 17:4:29.6700,-0.08,0.22,0.19
2019-04-04 17:4:29.7610,-0.01,0.12,0.22
2019-04-04 17:4:29.8510,0.02,-0.09,0.04
2019-04-04 17:4:29.9420,0.09,-0.14,-0.28
2019-04-04 17:4:30.0390,-0.05,0.14,-0.43
2019-04-04 17:4:30.1290,-0.2,-0.03,0.09
2019-04-04 17:4:30.2290,-0.16,0.23,0.34
2019-04-04 17:4:30.3040,-0.01,0.13,0.34
2019-04-04 17:4:30.3950,0.01,-0.21,-0.08
2019-04-04 17:4:30.4850,0.15,-0.24,-0.4
2019-04-04 17:4:30.5760,-0.04,0.03,-0.31
2019-04-04 17:4:30.6660,0.08,0.07,0.05
2019-04-04 17:4:30.7570,0.01,0.24,0.17
2019-04-04 17:4:30.8480,0.03,0.14,0.22
2019-04-04 17:4:30.9440,0.02,-0.07,0.16
2019-04-04 17:4:31.0330,0.13,-0.18,-0.17
2019-04-04 17:4:31.1370,-0.15,0.08,-0.58
2019-04-04 17:4:31.2100,0.04,0.02,0.07
2019-04-04 17:4:31.3000,-0.07,0.23,0.26
2019-04-04 17:4:31.3910,0.01,0.12,0.34
2019-04-04 17:4:31.4810,0.0,-0.11,0.0
2019-04-04 17:4:31.5720,0.13,-0.22,-0.18
2019-04-04 17:4:31.6630,0.02,-0.08,-0.52
2019-04-04 17:4:31.7530,0.12,0.14,-0.19
2019-04-04 17:4:31.8470,-0.16,0.21,0.21
2019-04-04 17:4:31.9410,-0.08,0.26,0.32
2019-04-04 17:4:32.0420,0.05,0.04,0.17
2019-04-04 17:4:32.1150,0.05,-0.19,-0.12
2019-04-04 17:4:32.2060,-0.22,-0.05,-0.53
2019-04-04 17:4:32.2960,-0.11,0.04,0.01
2019-04-04 17:4:32.3870,-0.16,0.17,0.09
2019-04-04 17:4:32.4780,-0.03,0.19,0.33
2019-04-04 17:4:32.5680,0.04,-0.01,0.16
2019-04-04 17:4:32.6590,0.05,-0.2,-0.12
2019-04-04 17:4:32.7530,0.2,-0.23,-0.3
2019-04-04 17:4:32.8480,0.09,0.0,-0.18
2019-04-04 17:4:32.9450,-0.08,0.21,0.16
2019-04-04 17:4:33.0210,-0.07,0.23,0.36
2019-04-04 17:4:33.1120,0.0,0.08,0.18
2019-04-04 17:4:33.2020,-0.06,-0.12,-0.08
2019-04-04 17:4:33.2920,-0.03,-0.16,-0.26
2019-04-04 17:4:33.3830,0.02,0.12,-0.36
2019-04-04 17:4:33.4740,-0.16,0.11,0.19
2019-04-04 17:4:33.5640,-0.1,0.18,0.35
2019-04-04 17:4:33.6580,0.01,-0.01,0.25
2019-04-04 17:4:33.7500,0.12,-0.14,-0.25
2019-04-04 17:4:33.8550,0.17,-0.29,-0.51
2019-04-04 17:4:33.9260,0.09,0.07,-0.22
2019-04-04 17:4:34.0170,-0.09,0.17,0.11
2019-04-04 17:4:34.1080,-0.16,0.23,0.38
2019-04-04 17:4:34.1980,-0.0,0.08,0.32
2019-04-04 17:4:34.2890,0.11,-0.09,-0.13
2019-04-04 17:4:34.3790,0.2,-0.19,-0.27
2019-04-04 17:4:34.4710,-0.03,-0.0,-0.39
2019-04-04 17:4:34.5630,-0.1,0.14,-0.03
2019-04-04 17:4:34.6560,-0.13,0.26,0.38
2019-04-04 17:4:34.7580,-0.02,0.14,0.36
2019-04-04 17:4:34.8320,0.04,-0.15,-0.02
2019-04-04 17:4:34.9230,0.08,-0.35,-0.38
2019-04-04 17:4:35.0130,0.09,-0.04,-0.39
2019-04-04 17:4:35.1040,-0.01,0.03,0.1
2019-04-04 17:4:35.1940,-0.06,0.27,0.24
2019-04-04 17:4:35.2850,-0.01,0.17,0.34
2019-04-04 17:4:35.3750,0.08,-0.04,0.07
2019-04-04 17:4:35.4710,0.16,-0.2,-0.28
2019-04-04 17:4:35.5630,-0.04,0.09,-0.6
2019-04-04 17:4:35.6630,-0.13,-0.11,0.1
2019-04-04 17:4:35.7380,-0.13,0.26,0.28
2019-04-04 17:4:35.8280,0.05,0.21,0.29
2019-04-04 17:4:35.9190,-0.04,-0.18,0.14
2019-04-04 17:4:36.0090,0.19,-0.35,-0.21
2019-04-04 17:4:36.1000,0.14,-0.03,-0.56
2019-04-04 17:4:36.1900,0.03,0.07,-0.14
2019-04-04 17:4:36.2810,-0.11,0.33,0.25
2019-04-04 17:4:36.3770,-0.07,0.22,0.34
2019-04-04 17:4:36.4680,0.11,-0.04,-0.07
2019-04-04 17:4:36.5700,-0.01,-0.34,-0.13
2019-04-04 17:4:36.6430,-0.14,0.07,-0.59
2019-04-04 17:4:36.7340,-0.03,0.13,0.08
2019-04-04 17:4:36.8240,-0.13,0.26,0.22
2019-04-04 17:4:36.9150,0.02,0.23,0.27
2019-04-04 17:4:37.0050,-0.03,-0.19,0.16
2019-04-04 17:4:37.0960,-0.0,-0.27,-0.41
2019-04-04 17:4:37.1870,0.09,-0.08,-0.43
2019-04-04 17:4:37.2830,0.08,0.01,0.1
2019-04-04 17:4:37.3730,-0.05,0.3,0.1
2019-04-04 17:4:37.4760,-0.06,0.24,0.3
2019-04-04 17:4:37.5490,0.04,0.02,0.24
2019-04-04 17:4:37.6390,-0.02,-0.16,-0.1
2019-04-04 17:4:37.7300,0.0,-0.15,-0.41
2019-04-04 17:4:37.8200,0.01,0.06,-0.22
2019-04-04 17:4:37.9110,-0.12,0.21,0.16
2019-04-04 17:4:38.0020,-0.13,0.19,0.44
2019-04-04 17:4:38.0920,-0.01,0.01,0.18
2019-04-04 17:4:38.1890,0.03,-0.3,-0.21
2019-04-04 17:4:38.2800,0.03,-0.28,-0.49
2019-04-04 17:4:38.3820,0.09,0.04,-0.13
2019-04-04 17:4:38.4540,-0.13,0.2,0.27
2019-04-04 17:4:38.5450,-0.05,0.29,0.34
2019-04-04 17:4:38.6360,0.03,0.09,0.17
2019-04-04 17:4:38.7260,-0.05,-0.16,-0.21
2019-04-04 17:4:38.8170,-0.04,-0.18,-0.31
2019-04-04 17:4:38.9070,-0.08,-0.03,-0.12
2019-04-04 17:4:38.9980,-0.08,0.18,0.1
2019-04-04 17:4:39.0930,-0.01,0.24,0.35
2019-04-04 17:4:39.1860,-0.01,0.03,0.15
2019-04-04 17:4:39.2870,0.08,-0.24,-0.13
2019-04-04 17:4:39.3600,0.12,-0.31,-0.4
2019-04-04 17:4:39.4510,0.11,0.03,-0.2
2019-04-04 17:4:39.5410,-0.05,0.17,0.12
2019-04-04 17:4:39.6320,-0.06,0.29,0.35
2019-04-04 17:4:39.7220,-0.02,0.1,0.28
2019-04-04 17:4:39.8130,0.02,-0.14,-0.07
2019-04-04 17:4:39.9030,-0.03,-0.24,-0.29
2019-04-04 17:4:40.0000,0.01,0.08,-0.35
2019-04-04 17:4:40.0910,-0.1,0.13,0.22
2019-04-04 17:4:40.1930,-0.09,0.25,0.29
2019-04-04 17:4:40.2660,-0.06,0.03,0.14
2019-04-04 17:4:40.3560,0.05,-0.23,-0.02
2019-04-04 17:4:40.4470,0.1,-0.27,-0.34
2019-04-04 17:4:40.5370,0.17,0.08,-0.17
2019-04-04 17:4:40.6280,-0.07,0.08,-0.06
2019-04-04 17:4:40.7180,-0.1,0.28,0.21
2019-04-04 17:4:40.8090,-0.1,0.15,0.29
2019-04-04 17:4:40.9040,0.03,-0.17,0.1
2019-04-04 17:4:40.9980,0.18,-0.36,-0.27
2019-04-04 17:4:41.0960,-0.03,0.17,-0.34
2019-04-04 17:4:41.1710,-0.01,0.1,-0.06
2019-04-04 17:4:41.2620,-0.04,0.29,0.3
2019-04-04 17:4:41.3520,-0.03,0.12,0.31
2019-04-04 17:4:41.4430,-0.02,-0.15,0.04
2019-04-04 17:4:41.5330,0.17,-0.44,-0.19
2019-04-04 17:4:41.6240,0.09,0.11,-0.37
2019-04-04 17:4:41.7150,0.03,0.03,-0.05
2019-04-04 17:4:41.8140,-0.03,0.18,0.28
2019-04-04 17:4:41.9040,-0.04,0.13,0.29
2019-04-04 17:4:42.0040,0.06,-0.01,0.07
2019-04-04 17:4:42.0770,0.03,0.01,-0.38
2019-04-04 17:4:42.1670,-0.1,0.04,-0.29
2019-04-04 17:4:42.2580,-0.09,-0.06,-0.08
2019-04-04 17:4:42.3480,-0.08,0.14,0.06
2019-04-04 17:4:42.4390,0.02,0.15,0.3
2019-04-04 17:4:42.5300,0.0,0.05,0.09
2019-04-04 17:4:42.6200,0.02,-0.04,-0.12
2019-04-04 17:4:42.7170,0.02,-0.06,-0.22
2019-04-04 17:4:42.8100,0.03,0.05,-0.29
2019-04-04 17:4:42.9100,-0.06,0.32,-0.13
2019-04-04 17:4:42.9820,-0.11,0.22,-0.07
2019-04-04 17:4:43.0730,-0.06,0.21,-0.06
2019-04-04 17:4:43.1630,0.02,0.19,0.03
2019-04-04 17:4:43.2540,0.1,0.05,0.05
2019-04-04 17:4:43.3450,0.0,0.07,-0.14
2019-04-04 17:4:43.4350,0.05,0.03,-0.0
2019-04-04 17:4:43.5260,-0.03,0.01,-0.07
2019-04-04 17:4:43.6210,-0.08,0.02,-0.08
2019-04-04 17:4:43.7150,-0.12,-0.03,0.02
2019-04-04 17:4:43.8170,-0.07,-0.01,0.05
2019-04-04 17:4:43.8880,-0.02,0.01,0.01
2019-04-04 17:4:43.9790,-0.01,0.01,-0.03
2019-04-04 17:4:44.0690,0.03,0.02,0.03
2019-04-04 17:4:44.1600,0.03,0.01,-0.02
2019-04-04 17:4:44.2500,0.02,-0.01,-0.03
2019-04-04 17:4:44.3410,0.0,0.02,0.01
2019-04-04 17:4:44.4310,0.0,0.03,0.04
2019-04-04 17:4:44.5290,-0.01,0.0,-0.01
2019-04-04 17:4:44.6200,-0.01,0.01,-0.02
2019-04-04 17:4:44.7190,-0.01,0.0,-0.01
2019-04-04 17:4:44.7940,-0.04,-0.01,0.02
2019-04-04 17:4:44.8840,-0.03,-0.01,0.03
2019-04-04 17:4:44.9750,0.01,-0.0,0.03
2019-04-04 17:4:45.0650,0.02,0.01,0.01
2019-04-04 17:4:45.1560,0.01,-0.0,-0.08
2019-04-04 17:4:45.2460,0.01,-0.02,0.04
2019-04-04 17:4:45.3370,0.0,-0.0,0.01
2019-04-04 17:4:45.4320,-0.0,0.03,-0.02
2019-04-04 17:4:45.5260,0.0,0.01,0.04
2019-04-04 17:4:45.6240,0.01,0.0,0.0
2019-04-04 17:4:45.6990,-0.01,-0.0,-0.03
2019-04-04 17:4:45.7900,-0.02,-0.02,0.01
2019-04-04 17:4:45.8800,0.01,-0.0,0.01
2019-04-04 17:4:45.9710,-0.0,0.0,0.01
2019-04-04 17:4:46.0610,0.02,-0.0,0.04
2019-04-04 17:4:46.1520,0.0,0.01,-0.01
2019-04-04 17:4:46.2420,0.01,-0.01,-0.01
2019-04-04 17:4:46.3390,-0.0,0.0,-0.01
2019-04-04 17:4:46.4310,0.01,0.01,0.0
2019-04-04 17:4:46.5330,0.01,-0.0,0.02
2019-04-04 17:4:46.6050,-0.0,-0.01,0.01
2019-04-04 17:4:46.6950,0.0,0.0,0.01
2019-04-04 17:4:46.7860,-0.0,0.01,0.02
2019-04-04 17:4:46.8760,-0.01,-0.01,0.0
2019-04-04 17:4:46.9670,-0.02,-0.04,0.03
