time,ax,ay,az
2019-04-04 16:50:40.8160,0.05,0.01,0.05
2019-04-04 16:50:40.9070,0.01,-0.02,0.05
2019-04-04 16:50:40.9990,0.05,-0.05,0.06
2019-04-04 16:50:41.0880,-0.01,0.03,0.03
2019-04-04 16:50:41.1790,-0.08,0.02,-0.06
2019-04-04 16:50:41.2690,-0.04,-0.01,0.02
2019-04-04 16:50:41.3600,0.06,0.08,-0.11
2019-04-04 16:50:41.4520,0.04,0.05,0.02
2019-04-04 16:50:41.5550,0.02,-0.02,-0.05
2019-04-04 16:50:41.6310,0.06,-0.02,0.09
2019-04-04 16:50:41.7220,-0.06,-0.01,0.06
2019-04-04 16:50:41.8120,0.01,-0.06,-0.0
2019-04-04 16:50:41.9050,0.01,0.01,-0.03
2019-04-04 16:50:41.9930,-0.03,0.04,0.05
2019-04-04 16:50:42.0840,-0.07,0.01,0.04
2019-04-04 16:50:42.1750,-0.01,0.03,-0.12
2019-04-04 16:50:42.2650,0.05,-0.02,0.11
2019-04-04 16:50:42.3610,-0.06,0.0,0.02
2019-04-04 16:50:42.4590,0.03,-0.04,-0.03
2019-04-04 16:50:42.5370,0.02,0.02,-0.05
2019-04-04 16:50:42.6280,0.01,-0.0,0.06
2019-04-04 16:50:42.7180,-0.02,0.01,0.01
2019-04-04 16:50:42.8090,-0.06,0.04,-0.1
2019-04-04 16:50:42.8990,0.08,0.02,0.0
2019-04-04 16:50:42.9900,-0.03,0.0,0.12
2019-04-04 16:50:43.0800,0.0,-0.04,-0.04
2019-04-04 16:50:43.1710,0.04,-0.01,-0.04
2019-04-04 16:50:43.2660,-0.02,0.02,0.04
2019-04-04 16:50:43.3670,-0.04,0.0,0.01
2019-04-04 16:50:43.4420,-0.04,0.01,-0.07
2019-04-04 16:50:43.5330,0.09,0.0,0.01
2019-04-04 16:50:43.6240,-0.05,0.02,0.09
2019-04-04 16:50:43.7160,0.01,-0.05,0.01
2019-04-04 16:50:43.8050,0.02,-0.0,-0.05
2019-04-04 16:50:43.8950,-0.02,0.01,0.01
2019-04-04 16:50:43.9860,0.01,0.01,0.06
2019-04-04 16:50:44.0760,-0.06,0.02,-0.03
2019-04-04 16:50:44.1700,0.1,-0.02,-0.05
2019-04-04 16:50:44.2700,-0.06,-0.0,0.1
2019-04-04 16:50:44.3480,0.01,-0.04,0.01
2019-04-04 16:50:44.4390,0.01,-0.01,-0.01
2019-04-04 16:50:44.5290,-0.02,-0.01,0.02
2019-04-04 16:50:44.6210,-0.02,-0.02,-0.04
2019-04-04 16:50:44.7100,-0.1,0.07,-0.03
2019-04-04 16:50:44.8010,0.04,-0.14,-0.19
2019-04-04 16:50:44.8910,-0.11,0.05,0.13
2019-04-04 16:50:44.9820,-0.02,0.09,0.08
2019-04-04 16:50:45.0750,-0.06,0.04,0.12
2019-04-04 16:50:45.1770,-0.05,0.02,0.05
2019-04-04 16:50:45.2540,0.05,0.02,0.09
2019-04-04 16:50:45.3440,0.08,-0.14,0.13
2019-04-04 16:50:45.4350,0.08,-0.18,-0.05
2019-04-04 16:50:45.5270,-0.02,-0.24,-0.07
2019-04-04 16:50:45.6160,0.02,-0.19,0.05
2019-04-04 16:50:45.7060,0.01,-0.16,0.11
2019-04-04 16:50:45.7970,0.02,-0.18,-0.02
2019-04-04 16:50:45.8880,-0.02,-0.2,-0.22
2019-04-04 16:50:45.9820,-0.01,-0.07,-0.29
2019-04-04 16:50:46.0820,-0.14,-0.13,0.11
2019-04-04 16:50:46.1590,-0.07,-0.04,0.33
2019-04-04 16:50:46.2500,-0.06,-0.12,0.29
2019-04-04 16:50:46.3400,0.1,-0.09,-0.05
2019-04-04 16:50:46.4330,0.13,0.12,-0.13
2019-04-04 16:50:46.5220,-0.02,0.06,0.08
2019-04-04 16:50:46.6120,0.03,-0.05,0.17
2019-04-04 16:50:46.7030,-0.0,-0.17,0.06
2019-04-04 16:50:46.7930,0.01,-0.26,-0.2
2019-04-04 16:50:46.8860,-0.14,-0.03,-0.28
2019-04-04 16:50:46.9880,-0.13,-0.0,-0.23
2019-04-04 16:50:47.0650,0.11,0.09,-0.09
2019-04-04 16:50:47.1560,-0.0,0.02,0.54
2019-04-04 16:50:47.2460,-0.24,-0.07,0.07
2019-04-04 16:50:47.3380,0.16,-0.08,-0.17
2019-04-04 16:50:47.4270,0.23,0.12,-0.32
2019-04-04 16:50:47.5180,0.27,0.13,0.12
2019-04-04 16:50:47.6080,0.04,-0.04,0.31
2019-04-04 16:50:47.6990,-0.06,-0.21,0.13
2019-04-04 16:50:47.7920,-0.0,-0.32,-0.47
2019-04-04 16:50:47.8930,-0.19,0.03,-0.16
2019-04-04 16:50:47.9710,-0.29,0.34,-0.28
2019-04-04 16:50:48.0610,-0.04,0.23,0.2
2019-04-04 16:50:48.1510,0.07,0.01,0.51
2019-04-04 16:50:48.2430,0.14,-0.21,0.12
2019-04-04 16:50:48.3330,0.18,0.01,-0.16
2019-04-04 16:50:48.4230,0.18,0.2,-0.55
2019-04-04 16:50:48.5140,0.08,0.15,0.22
2019-04-04 16:50:48.6040,0.02,-0.04,0.3
2019-04-04 16:50:48.6980,0.0,-0.06,0.04
2019-04-04 16:50:48.7990,-0.2,-0.05,-0.08
2019-04-04 16:50:48.8760,-0.08,0.07,-0.41
2019-04-04 16:50:48.9670,0.12,0.04,-0.07
2019-04-04 16:50:49.0570,-0.03,-0.05,0.45
2019-04-04 16:50:49.1490,-0.11,-0.12,0.1
2019-04-04 16:50:49.2380,0.15,0.08,-0.31
2019-04-04 16:50:49.3290,0.1,0.18,-0.26
2019-04-04 16:50:49.4190,0.05,0.2,0.1
2019-04-04 16:50:49.5100,-0.08,-0.05,0.32
2019-04-04 16:50:49.6060,-0.06,-0.27,0.13
2019-04-04 16:50:49.7040,-0.03,-0.17,-0.06
2019-04-04 16:50:49.7820,-0.33,-0.03,-0.03
2019-04-04 16:50:49.8720,0.02,0.13,-0.44
2019-04-04 16:50:49.9630,0.05,0.1,0.35
2019-04-04 16:50:50.0550,-0.04,0.03,0.47
2019-04-04 16:50:50.1440,-0.04,-0.09,0.19
2019-04-04 16:50:50.2350,0.13,0.09,-0.44
2019-04-04 16:50:50.3250,0.01,0.25,-0.4
2019-04-04 16:50:50.4160,0.14,0.03,-0.01
2019-04-04 16:50:50.5090,-0.03,-0.21,0.35
2019-04-04 16:50:50.6110,-0.15,-0.11,0.02
2019-04-04 16:50:50.6870,0.0,-0.14,-0.09
2019-04-04 16:50:50.7780,-0.18,-0.12,-0.08
2019-04-04 16:50:50.8680,0.11,-0.06,0.24
2019-04-04 16:50:50.9610,-0.1,0.11,0.27
2019-04-04 16:50:51.0500,-0.1,-0.03,0.19
2019-04-04 16:50:51.1400,0.12,0.12,-0.12
2019-04-04 16:50:51.2310,0.14,0.14,-0.3
2019-04-04 16:50:51.3210,0.29,0.16,-0.11
2019-04-04 16:50:51.4140,0.13,0.03,0.32
2019-04-04 16:50:51.5180,-0.2,-0.25,0.2
2019-04-04 16:50:51.5930,-0.14,-0.21,-0.05
2019-04-04 16:50:51.6830,-0.24,0.0,-0.34
2019-04-04 16:50:51.7740,-0.09,0.11,-0.47
2019-04-04 16:50:51.8660,0.05,0.09,0.2
2019-04-04 16:50:51.9550,-0.0,-0.01,0.43
2019-04-04 16:50:52.0460,0.03,-0.09,0.02
2019-04-04 16:50:52.1360,0.11,0.06,-0.27
2019-04-04 16:50:52.2270,0.11,0.17,-0.31
2019-04-04 16:50:52.3220,0.1,0.14,0.09
2019-04-04 16:50:52.4220,-0.03,-0.08,0.38
2019-04-04 16:50:52.4980,-0.07,-0.17,-0.02
2019-04-04 16:50:52.5890,-0.16,-0.02,-0.06
2019-04-04 16:50:52.6790,-0.18,0.01,-0.53
2019-04-04 16:50:52.7720,0.1,0.12,-0.0
2019-04-04 16:50:52.8610,-0.04,0.08,0.45
2019-04-04 16:50:52.9510,-0.05,-0.04,0.11
2019-04-04 16:50:53.0420,0.23,0.14,-0.39
2019-04-04 16:50:53.1320,0.06,0.04,-0.21
2019-04-04 16:50:53.2270,0.05,0.14,0.06
2019-04-04 16:50:53.3270,-0.03,-0.07,0.39
2019-04-04 16:50:53.4040,-0.1,-0.18,0.06
2019-04-04 16:50:53.4950,-0.04,-0.04,-0.09
2019-04-04 16:50:53.5850,-0.09,0.02,-0.4
2019-04-04 16:50:53.6770,0.1,0.03,0.1
2019-04-04 16:50:53.7660,-0.02,0.06,0.36
2019-04-04 16:50:53.8570,-0.09,-0.02,0.31
2019-04-04 16:50:53.9470,0.06,-0.03,-0.04
2019-04-04 16:50:54.0380,0.13,0.03,-0.07
2019-04-04 16:50:54.1340,0.17,0.12,-0.22
2019-04-04 16:50:54.2340,0.06,0.08,0.2
2019-04-04 16:50:54.3100,-0.01,-0.13,0.34
2019-04-04 16:50:54.4000,0.07,-0.15,-0.07
2019-04-04 16:50:54.4910,-0.2,-0.15,-0.04
2019-04-04 16:50:54.5830,-0.11,0.03,-0.32
2019-04-04 16:50:54.6720,0.02,0.13,-0.16
2019-04-04 16:50:54.7620,-0.06,0.01,0.39
2019-04-04 16:50:54.8530,-0.07,-0.14,-0.01
2019-04-04 16:50:54.9440,0.21,-0.01,-0.2
2019-04-04 16:50:55.0350,0.11,0.03,-0.09
2019-04-04 16:50:55.1440,0.12,0.1,0.12
2019-04-04 16:50:55.2150,-0.12,0.06,0.3
2019-04-04 16:50:55.3060,-0.03,-0.3,0.11
2019-04-04 16:50:55.3960,-0.02,-0.21,-0.01
2019-04-04 16:50:55.4890,-0.06,-0.01,-0.11
2019-04-04 16:50:55.5770,0.18,0.19,-0.24
2019-04-04 16:50:55.6680,-0.06,-0.02,0.23
2019-04-04 16:50:55.7590,-0.18,-0.1,0.4
2019-04-04 16:50:55.8490,-0.04,-0.16,-0.37
2019-04-04 16:50:55.9420,0.11,0.08,-0.22
2019-04-04 16:50:56.0430,-0.02,0.21,-0.17
2019-04-04 16:50:56.1210,0.21,0.25,-0.16
2019-04-04 16:50:56.2110,0.02,-0.05,0.44
2019-04-04 16:50:56.3020,-0.09,-0.23,0.09
2019-04-04 16:50:56.3940,0.0,-0.05,-0.19
2019-04-04 16:50:56.4830,-0.09,-0.01,-0.6
2019-04-04 16:50:56.5740,-0.04,-0.03,0.06
2019-04-04 16:50:56.6640,-0.02,0.12,0.23
2019-04-04 16:50:56.7550,-0.06,0.03,-0.1
2019-04-04 16:50:56.8500,0.05,0.04,-0.02
2019-04-04 16:50:56.9520,0.12,0.03,-0.01
2019-04-04 16:50:57.0260,0.12,0.07,0.09
2019-04-04 16:50:57.1170,0.05,0.09,0.08
2019-04-04 16:50:57.2070,0.02,-0.09,0.31
2019-04-04 16:50:57.3000,0.01,-0.02,-0.07
2019-04-04 16:50:57.3890,-0.17,-0.09,-0.01
2019-04-04 16:50:57.4790,-0.04,0.03,-0.21
2019-04-04 16:50:57.5700,0.02,0.05,0.08
2019-04-04 16:50:57.6600,-0.08,-0.1,0.31
2019-04-04 16:50:57.7550,-0.02,-0.13,-0.1
2019-04-04 16:50:57.8540,0.01,-0.01,-0.17
2019-04-04 16:50:57.9320,0.01,0.27,-0.2
2019-04-04 16:50:58.0230,-0.1,0.03,0.14
2019-04-04 16:50:58.1130,0.02,-0.1,0.2
2019-04-04 16:50:58.2030,0.01,-0.04,0.21
2019-04-04 16:50:58.2940,0.0,-0.06,-0.13
2019-04-04 16:50:58.3850,-0.11,0.18,-0.32
2019-04-04 16:50:58.4750,0.0,-0.09,0.23
2019-04-04 16:50:58.5660,-0.07,-0.12,0.26
2019-04-04 16:50:58.6600,-0.04,-0.12,-0.08
2019-04-04 16:50:58.7610,0.14,0.04,-0.37
2019-04-04 16:50:58.8380,0.01,0.15,-0.02
2019-04-04 16:50:58.9280,0.07,0.1,0.58
2019-04-04 16:50:59.0190,-0.11,-0.06,0.21
2019-04-04 16:50:59.1110,0.04,-0.25,-0.2
2019-04-04 16:50:59.2000,-0.07,0.05,-0.13
2019-04-04 16:50:59.2900,-0.08,-0.04,-0.2
2019-04-04 16:50:59.3810,0.04,0.11,0.01
2019-04-04 16:50:59.4710,-0.05,0.1,0.24
2019-04-04 16:50:59.5680,-0.04,-0.12,0.27
2019-04-04 16:50:59.6670,0.13,0.0,-0.23
2019-04-04 16:50:59.7430,0.14,0.04,-0.14
2019-04-04 16:50:59.8340,0.06,0.07,-0.01
2019-04-04 16:50:59.9240,-0.04,0.09,0.06
2019-04-04 16:51:00.0150,-0.04,-0.08,0.21
2019-04-04 16:51:00.1050,0.06,-0.03,0.01
2019-04-04 16:51:00.1960,-0.25,0.1,-0.12
2019-04-04 16:51:00.2860,-0.12,0.09,-0.03
2019-04-04 16:51:00.3770,0.0,0.15,-0.06
2019-04-04 16:51:00.4710,-0.06,0.04,0.25
2019-04-04 16:51:00.5750,0.02,-0.01,0.16
2019-04-04 16:51:00.6490,0.15,0.04,-0.35
2019-04-04 16:51:00.7390,-0.03,0.26,-0.63
2019-04-04 16:51:00.8300,0.07,0.07,-0.28
2019-04-04 16:51:00.9200,0.04,0.04,0.17
2019-04-04 16:51:01.0110,-0.1,0.15,0.19
2019-04-04 16:51:01.1020,-0.18,0.16,-0.0
2019-04-04 16:51:01.1920,-0.04,0.47,-0.47
2019-04-04 16:51:01.2830,0.09,0.33,-0.2
2019-04-04 16:51:01.3770,-0.06,0.13,0.19
2019-04-04 16:51:01.4790,-0.03,0.11,-0.02
2019-04-04 16:51:01.5540,0.11,0.05,-0.21
2019-04-04 16:51:01.6450,0.01,-0.02,0.1
2019-04-04 16:51:01.7360,-0.08,0.1,0.06
2019-04-04 16:51:01.8260,0.03,0.11,-0.09
2019-04-04 16:51:01.9160,-0.04,0.04,0.09
2019-04-04 16:51:02.0070,0.02,0.01,-0.05
2019-04-04 16:51:02.0970,-0.01,-0.02,0.0
2019-04-04 16:51:02.1880,-0.03,0.01,-0.0
2019-04-04 16:51:02.2830,-0.02,0.02,-0.01
2019-04-04 16:51:02.3860,-0.03,0.03,0.06
2019-04-04 16:51:02.4600,-0.03,-0.01,0.01
2019-04-04 16:51:02.5510,0.1,-0.06,-0.06
2019-04-04 16:51:02.6410,-0.05,-0.05,0.02
2019-04-04 16:51:02.7330,-0.04,0.03,0.03
2019-04-04 16:51:02.8220,0.05,0.02,-0.02
2019-04-04 16:51:02.9130,-0.02,-0.02,0.05
2019-04-04 16:51:03.0030,-0.02,-0.01,0.03
2019-04-04 16:51:03.0940,0.06,-0.03,-0.02
2019-04-04 16:51:03.1880,-0.04,-0.0,0.0
2019-04-04 16:51:03.2910,0.04,0.03,-0.05
2019-04-04 16:51:03.3660,0.01,-0.01,0.02
2019-04-04 16:51:03.4560,-0.07,0.02,0.05
2019-04-04 16:51:03.5470,0.03,0.02,-0.01
2019-04-04 16:51:03.6370,0.0,-0.06,0.01
2019-04-04 16:51:03.7280,-0.01,0.01,0.02
2019-04-04 16:51:03.8180,0.03,0.01,-0.02
2019-04-04 16:51:03.9090,-0.03,-0.01,0.08
2019-04-04 16:51:03.9990,-0.02,0.03,0.02
2019-04-04 16:51:04.0950,-0.02,-0.04,-0.01
2019-04-04 16:51:04.1950,-0.12,0.04,-0.0
2019-04-04 16:51:04.2710,0.03,-0.01,0.04
2019-04-04 16:51:04.3620,0.1,-0.04,-0.06
2019-04-04 16:51:04.4520,-0.04,-0.0,0.01
2019-04-04 16:51:04.5430,0.03,-0.01,-0.02
2019-04-04 16:51:04.6430,-0.04,-0.04,0.17
